Folder: Bgolearn/SnIn/cusn/output_xrd

Note: README.md
<h1 align="center">
  <a href=""><img src="https://user-images.githubusercontent.com/86995074/232675281-97ee5a19-b238-4d83-913c-7b0489807fa9.jpeg" alt="Bgolearn" width="150"></a>
  <br>
  Bgolearn
  <br>
</h1>


ğŸ¤ğŸ¤ğŸ¤ Please star â­ï¸ it for promoting open source projects ğŸŒ ! Thanks ! For inquiries or assistance, please don't hesitate to contact us at bcao686@connect.hkust-gz.edu.cn (Dr. CAO Bin).

**Bgolearn** has been implemented in the machine learning platform [MLMD](http://123.60.55.8/). **Bgolearn Code** : [here](https://colab.research.google.com/drive/1OSc-phxm7QLOm8ceGJiIMGGz9riuwP6Q?usp=sharing) The **video of Bgolearn** has been uploaded to platforms : [BiliBili](https://www.bilibili.com/video/BV1Ae411J76z/?spm_id_from=333.999.0.0&vd_source=773e0c92141f498497cfafd0112fc146). [YouTube](https://www.youtube.com/watch?v=MSG6wcBol64&t=48s).


![Screenshot 2023-11-16 at 11 23 35](https://github.com/Bin-Cao/Bgolearn/assets/86995074/cd0d24e4-06db-45f7-b6d6-12750fa8b819)


# Python package - Bgolearn 

**No gradient** information is used
![plot](https://github.com/Bin-Cao/Bgolearn/assets/86995074/d4e43900-eadb-4ddf-af46-0208314de41a)



## Installing / å®‰è£…
    pip install Bgolearn 
    
## Checking / æŸ¥çœ‹
    pip show Bgolearn 
    
## Updating / æ›´æ–°
    pip install --upgrade Bgolearn


## Template 
``` javascript
# import BGOsampling after installation 
# å®‰è£…å, é€šè¿‡æ­¤å‘½ä»¤è°ƒç”¨BGOsamplingç±»
import Bgolearn.BGOsampling as BGOS

# import your dataset (Samples have been characterized)
# å¯¼å…¥ç ”ç©¶çš„æ•°æ®é›†(å·²ç»è¡¨å¾è¿‡çš„æ ·æœ¬)
data = pd.read_csv('data.csv') 
# features 
x = data.iloc[:,:-1]
# response / target 
y = data.iloc[:,-1]

# virtual samples which have same feature dimension with x
# è®¾è®¡çš„è™šæ‹Ÿæ ·æœ¬, ä¸xå…·æœ‰ç›¸åŒçš„ç»´åº¦
vs = pd.read_csv('virtual_data.csv') 

# instantiate class
# å®ä¾‹åŒ–ç±» Bgolearn
Bgolearn = BGOS.Bgolearn() 

# Pass parameters to the function
# ä¼ å…¥å‚æ•°
Mymodel = Bgolearn.fit(data_matrix = x, Measured_response = y, virtual_samples = vs)

# derive the result by EI
# é€šè¿‡EIå¯¼å‡ºç»“æœ
Mymodel.EI()
```

## Multi-task design
    pip install BgoKit 
    
``` javascript
from BgoKit import ToolKit
# vs is the virtual samples
# score_1,score_2 are output of Bgolearn
# score_1, _= Mymodel_1.EI() ; score_2, _= Mymodel_2.EI()

Model = ToolKit.MultiOpt(vs,[score_1,score_2])
Model.BiSearch()
Model.plot_distribution()
```
See : [Link](https://github.com/Bin-Cao/Bgolearn/blob/main/Template/%E4%B8%AD%E6%96%87%E7%A4%BA%E4%BE%8B/%E5%A4%9A%E7%9B%AE%E6%A0%87%E5%AE%9E%E7%8E%B0/%E5%A4%9A%E7%9B%AE%E6%A0%87.ipynb)
<img src="https://github.com/Bin-Cao/Bgolearn/assets/86995074/41c90c29-364c-47cc-aefe-4433f7d93e23" alt="1" width="300" height="300">



## cite
1:
    Cao B., Su T, Yu S, Li T, Zhang T, Zhang J, Dong Z, Zhang Ty. Active learning accelerates the discovery of high strength and high ductility lead-free solder alloys, Materials & Design, 2024, 112921, ISSN 0264-1275, https://doi.org/10.1016/j

File: Cu6Sn5_Extinction_peak.csv
H,K,L,Distance,2theta/TOF,Mult
0,-1,3,2.9618,30.1743,4
-2,-1,3,2.7703,32.3152,4
-3,0,-2,2.7186,32.9471,2
3,2,0,2.5736,34.8611,4
-3,-2,1,2.5574,35.089,4
-2,1,-3,2.4621,36.4941,4
0,3,0,2.4293,37.0046,2
-4,1,2,2.4074,37.3536,4
3,2,-2,2.384,37.734,4
-1,2,-3,2.3091,39.0067,4
-1,0,-4,2.2993,39.1797,2
2,-1,-4,2.2443,40.1807,4
-5,0,1,2.2015,40.9966,2
-5,0,0,2.1811,41.3975,2
0,3,-2,2.1731,41.557,4
-4,1,-2,2.138,42.2716,4
-3,-2,3,2.1312,42.413,4
-2,3,2,2.068,43.775,4
-1,2,4,2.0355,44.511,4
2,3,2,1.9728,46.0054,4
5,0,-3,1.9535,46.4865,2
0,-3,3,1.944,46.7271,4
-4,1,4,1.9023,47.8144,4
2,3,-3,1.8867,48.2348,4
-5,-2,1,1.8843,48.3001,4
4,-1,3,1.8791,48.4424,4
1,0,5,1.866,48.8045,2
-3,0,5,1.8358,49.6612,2
-4,3,1,1.8167,50.2193,4
-1,4,0,1.797,50.8087,4
6,-1,-1,1.7824,51.2549,4
1,4,-1,1.7751,51.4811,4
5,0,-4,1.7633,51.8511,2
4,3,-2,1.7591,51.9842,4
6,1,-2,1.743,52.5008,4
-5,-2,3,1.7217,53.201,4
2,-1,5,1.7008,53.9072,4
5,0,3,1.6934,54.162,2
-6,-1,-1,1.6917,54.2209,4
5,-2,2,1.6744,54.8279,4
4,1,-5,1.6668,55.099,4
4,-3,-3,1.6564,55.4747,4
4,1,4,1.6467,55.8299,4
1,0,-6,1.6401,56.0744,2
-3,4,0,1.6288,56.4982,4
-3,0,-5,1.6151,57.0211,2
3,-4,1,1.5888,58.054,4
-2,1,6,1.5841,58.2427,4
-3,-4,2,1.5774,58.5141,4
3,0,-6,1.5726,58.7101,2
7,0,0,1.5579,59.3191,2
-7,0,2,1.5544,59.4661,2
5,2,3,1.5357,60.2647,4
0,3,-5,1.5183,61.0284,4
-5,0,-4,1.5124,61.2921,2
7,0,1,1.5028,61.7263,2
7,0,-3,1.4965,62.0148,2
3,2,5,1.4765,62.95,4
6,-3,-1,1.4658,63.4628,4
2,1,6,1.4621,63.6422,4
0,-5,0,1.4576,63.8619,2
4,1,5,1.4502,64.2267,4
-3,2,6,1.4439,64.5407,4
0,5,1,1.4414,64.6663,4
7,2,0,1.4325,65.1175,4
-1,4,-4,1.428,65.3482,4
2,3,5,1.4194,65.7941,4
-6,-1,5,1.4153,66.0089,4
-7,0,4,1.4137,66.0932,2
2,-5,0,1.4081,66.3899,4
-5,4,1,1.4036,66.6304,4
-2,5,1,1.4015,66.7433,4
-5,4,0,1.3983,66.9161,4
0,5,2,1.3962,67.0301,4
-7,-2,-1,1.3893,67.4074,4
-2,-5,-1,1.3858,67.6006,4
5,4,-2,1.3803,67.9065,4
-3,0,7,1.3695,68.5161,2
5,4,1,1.3653,68.7563,4
-8,1,1,1.3553,69.3358,4
2,-3,-6,1.3495,69.6768,4
-8,-1,2,1.3447,69.9617,4
2,-5,2,1.3385,70.3335,4
6,-1,4,1.3362,70.4726,4
0,-5,3,1.3293,70.8933,4
-7,2,-2,1.3245,71.1892,4
7,0,-5,1.3184,71.5691,2
5,-2,-6,1.3136,71.8712,4
-1,2,7,1.3112,72.0233,4
5,4,2,1.3101,72.0933,4
-3,2,-6,1.3089,72.1698,4
-4,1,7,1.3012,72.6648,4
-6,-1,6,1.2929,73.2067,4
4,5,-1,1.2864,73.6374,4
3,2,-7,1.282,73.9321,4
-4,3,6,1.2748,74.42,4
2,-3,6,1.2716,74.6391,4
5,2,5,1.2679,74.8942,4
4,-5,-2,1.2655,75.0608,4
5,0,-7,1.2626,75.2631,2
8,-1,-4,1.2562,75.7139,4
7,2,3,1.2469,76.3797,4
-6,-3,5,1.2405,76.8455,4
-2,-5,4,1.2399,76.8895,4
3,0,7,1.2361,77.1695,2
9,0,-1,1.2257,77.9473,2
4,-5,2,1.2211,78.297,4
-6,-1,-5,1.2194,78.4271,4
-5,0,-6,1.2149,78.7739,2
9,0,0,1.2117,79.0226,2
-3,0,8,1.2099,79.1632,2
1,6,0,1.2072,79.3753,4
-1,-6,1,1.2004,79.915,4
0,1,8,1.199,80.0272,4
-9,0,3,1.1967,80.2122,2
7,-4,-1,1.1921,80.5851,4
8,-1,-5,1.1903,80.7321,4
-1,-4,-6,1.1887,80.8633,4
6,-3,4,1.1862,81.0692,4
7,4,-2,1.1825,81.3762,4
6,1,-7,1.1798,81.6018,4
1,6,-2,1.1763,81.8965,4
-3,2,-7,1.1706,82.3815,4
1,-6,2,1.167,82.6913,4
-7,2,-4,1.1645,82.9079,4
-5,4,-4,1.1637,82.9775,4
-9,2,1,1.1617,83.1521,4
7,4,1,1.1593,83.3627,4
7,2,-6,1.1572,83.548,4
-6,-3,6,1.1556,83.6898,4
-5,-2,-6,1.1525,83.9662,4
4,-3,6,1.1516,84.0468,4
-9,-2,0,1.1498,84.2085,4
2,-3,7,1.1458,84.5706,4
-5,0,8,1.1385,85.2406,2
-6,-5,0,1.1371,85.3705,4
2,-1,8,1.1356,85.5102,4
3,-6,-2,1.1334,85.716,4
-1,-2,-8,1.1297,86.0647,4
7,0,-7,1.1261,86.4072,2
-9,2,-1,1.123,86.7046,4
-2,-5,-5,1.1197,87.0239,4
-6,5,-1,1.1171,87.2774,4
-5,4,6,1.1142,87.5621,4
-1,-4,7,1.1128,87.7004,4
4,-5,-5,1.1098,87.9983,4
9,0,-5,1.1074,88.2384,2
8,-1,4,1.1053,88.4497,4
9,-2,-4,1.1032,88.6622,4
-3,6,3,1.1025,88.7333,4
-5,0,-7,1.098,89.1935,2
1,0,-9,1.0918,89.837,2
1,6,-4,1.0886,90.1733,4
0,-3,8,1.0871,90.3321,4
5,4,5,1.0859,90.4595,4
9,-2,2,1.0842,90.6408,4
7,2,5,1.0829,90.78,4
-8,-3,5,1.0806,91.0275,4
6,1,-8,1.0785,91.2549,4
-1,6,-4,1.074,91.7467,4
7,4,3,1.0727,91.89,4
6,-5,-4,1.0701,92.1781,4
0,1,9,1.0688,92.323,4
5,-6,-1,1.0635,92.9193,4
4,-3,-8,1.061,93.2038,4
1,0,9,1.0594,93.387,2
-10,-1,-1,1.0546,93.9418,4
-4,3,-7,1.0523,94.2104,4
9,0,-6,1.0507,94.3984,2
-5,-6,-1,1.0465,94.8962,4
-7,0,-6,1.046,94.9559,2
-4,-5,6,1.0445,95.1355,4
-6,5,-3,1.0422,95.4125,4
2,-3,8,1.0391,95.789,4
-4,5,-5,1.0384,95.8745,4
-9,-2,-3,1.0372,96.0215,4
-1,-6,5,1.0335,96.4783,4
8,-1,5,1.0331,96.528,4
8,3,-6,1.0262,97.3954,4
9,0,4,1.0237,97.7144,2
2,-7,0,1.0226,97.8556,4
-3,6,-4,1.022,97.9328,4
-10,-1,-2,1.0207,98.1007,4
-1,4,8,1.0188,98.3472,4
-1,-6,-5,1.0179,98.4646,4
-9,4,1,1.0169,98.5954,4
2,7,1,1.014,98.9771,4
-3,6,5,1.013,99.1096,4
10,-1,-5,1.0103,99.4695,4
2,-5,-7,1.0091,99.6305,4
-3,-4,8,1.0079,99.7922,4
2,7,-2,1.0066,99.9681,4

File: Cu6Sn5HKL.csv
H,K,L,Distance,2theta/TOF,Mult
1,1,-3,2.9652,30.1388,1
0,2,2,2.916,30.6597,4
2,2,1,2.8251,31.6717,1
4,0,-1,2.7364,32.7267,2
2,2,-2,2.6756,33.492,1
4,0,-2,2.5505,35.1871,2
4,0,1,2.5265,35.5324,2
3,-1,-3,2.4718,36.3459,4
0,2,3,2.4219,37.1218,4
2,0,-4,2.3589,38.1509,2
1,-3,-1,2.3215,38.7899,4
-1,-3,-1,2.2862,39.4135,4
-4,0,-2,2.2364,40.3288,2
4,-2,-1,2.1881,41.259,4
1,3,-2,2.1598,41.8248,4
-2,2,-3,2.125,42.5428,4
-1,-3,-2,2.1038,42.9927,4
4,2,-2,2.0895,43.3017,4
5,1,-2,2.0309,44.6172,4
-3,3,0,2.0198,44.8757,4
-5,-1,-1,1.984,45.7309,4
4,0,-4,1.9706,46.0597,2
-2,0,5,1.9277,47.146,2
4,2,-3,1.9232,47.263,4
1,1,-5,1.8995,47.8893,1
-1,3,-3,1.8841,48.3056,4
3,1,4,1.8308,49.806,4
0,4,0,1.822,50.0631,2
-3,-3,-2,1.8114,50.3765,1
-6,0,2,1.7951,50.8663,2
3,-3,-3,1.7837,51.2149,4
-2,0,-5,1.7491,52.3038,2
-4,-2,4,1.7334,52.814,4
1,-3,-4,1.7265,53.0415,4
5,1,-4,1.7138,53.4657,4
0,-4,-2,1.7061,53.7263,4
-6,0,3,1.7003,53.9244,2
2,-4,1,1.6873,54.3739,4
2,-4,-2,1.6538,55.5694,4
5,-1,3,1.6495,55.7269,4
-5,-3,1,1.6313,56.4038,4
2,0,-6,1.623,56.7183,2
0,0,6,1.6208,56.8023,2
2,4,2,1.6039,57.4562,4
-5,-3,2,1.595,57.8069,4
2,-2,5,1.5768,58.5385,4
5,3,1,1.572,58.7347,4
2,4,-3,1.5566,59.3736,4
5,-1,-5,1.5409,60.0404,4
3,-1,-6,1.5372,60.1998,4
1,3,-5,1.5289,60.5607,4
-5,-3,3,1.5223,60.851,4
-4,4,1,1.5165,61.1086,4
-4,0,6,1.4976,61.9642,2
-3,-3,-4,1.4924,62.2041,1
5,-3,2,1.4893,62.348,4
-4,4,2,1.4825,62.6663,4
1,3,5,1.4798,62.7936,4
-7,-1,-1,1.4718,63.1742,4
-3,-3,5,1.4646,63.5209,1
-6,-2,4,1.4466,64.4057,4
-6,0,5,1.4428,64.5959,2
1,-5,-1,1.4333,65.0767,4
-1,5,-1,1.4248,65.5133,4
4,-4,2,1.4125,66.1565,4
-7,-1,-2,1.3954,67.0736,4
5,-3,3,1.3892,67.4129,4
-4,-2,6,1.3851,67.6393,4
-2,2,-6,1.3811,67.8618,4
8,0,-1,1.3793,67.9624,2
4,2,5,1.371,68.4307,4
-8,0,0,1.3632,68.8771,2
-3,-5,0,1.3528,69.4823,4
3,-1,-7,1.346,69.8843,4
-6,-2,5,1.3414,70.1591,4
8,0,-3,1.3316,70.7524,2
-1,5,3,1.3296,70.8748,4
3,5,-2,1.323,71.2822,4
3,3,-6,1.3201,71.4628,1
-6,0,6,1.3137,71.8649,2
-1,5,-3,1.3097,72.1188,4
-4,0,-6,1.308,72.2272,2
2,0,7,1.2994,72.7815,2
7,-1,-5,1.2974,72.9118,4
-8,-2,1,1.29,73.3982,4
3,5,2,1.2846,73.7576,4
-8,-2,2,1.2808,74.0129,4
7,-3,1,1.278,74.2023,4
-8,0,4,1.2752,74.3927,2
-7,3,3,1.2741,74.4678,4
-8,0,-2,1.2632,75.2211,2
-6,4,-1,1.258,75.5865,4
-8,-2,3,1.2507,76.1061,4
5,-1,-7,1.2441,76.5827,4
4,4,4,1.2392,76.9409,1
-6,-2,6,1.2359,77.1842,4
7,-3,2,1.227,77.8491,4
-7,3,4,1.2219,78.2359,4
-5,3,6,1.2183,78.5116,4
0,0,8,1.2156,78.7197,2
0,-6,0,1.2146,78.7971,2
5,5,0,1.2118,79.0148,1
9,-1,-1,1.2087,79.2573,4
0,6,-1,1.2053,79.5252,4
-5,-5,2,1.2001,79.939,1
-6,0,7,1.1956,80.301,2
3,1,-8,1.1936,80.4631,4
3,3,-7,1.193,80.5118,1
-5,-5,-1,1.1902,80.7403,1
2,-6,-1,1.1816,81.4512,4
4,0,-8,1.1794,81.6354,2
1,-1,8,1.1727,82.2021,4
1,5,-5,1.1712,82.3302,4
-4,0,-7,1.1676,82.6395,2
-7,3,-3,1.1646,82.8992,4
-2,6,2,1.1607,83.2397,4
4,4,-6,1.1569,83.5746,1
-6,4,-3,1.1538,83.85,4
2,0,8,1.1496,84.2265,2
8,2,-5,1.1454,84.607,4
-2,6,-2,1.1431,84.817,4
0,6,3,1.1374,85.3426,4
8,2,3,1.1338,85.6785,4
-6,4,5,1.1311,85.9324,4
2,-6,-3,1.1256,86.455,4
5,5,-4,1.1234,86.6661,1
7,-1,5,1.1206,86.9366,4
8,0,4,1.1182,87.1699,2
-4,6,1,1.1102,87.9584,4
2,-4,-7,1.1093,88.0482,4
-10,0,1,1.1026,88.7231,2
2,6,3,1.1016,88.8249,4
8,4,-1,1.0997,89.019,4
-2,-2,-8,1.0964,89.3585,1
-4,-6,-1,1.0947,89.5347,4
8,4,-2,1.094,89.6074,4
-8,4,0,1.0915,89.8684,4
7,-3,-6,1.0905,89.9733,4
-5,3,-6,1.0866,90.3851,4
5,1,7,1.0857,90.4808,4
-9,3,0,1.0843,90.6301,4
3,5,5,1.082,90.8766,4
0,0,-9,1.0805,91.0383,2
-1,1,9,1.0797,91.1248,4
-8,4,3,1.075,91.6369,4
-4,-6,3,1.0703,92.1559,4
3,-5,-6,1.069,92.3007,4
1,3,8,1.0674,92.4796,4
-10,0,-1,1.0658,92.6594,2
7,5,0,1.0643,92.8287,4
4,-4,6,1.0625,93.0329,4
-2,-4,-7,1.0579,93.5595,4
-10,2,1,1.0553,93.8604,4
2,-6,4,1.0519,94.2573,4
-1,1,-9,1.0484,94.6702,4
-9,3,4,1.045,95.0755,4
8,4,-4,1.0447,95.1115,4
-8,0,-5,1.0437,95.2316,2
8,4,2,1.0381,95.9112,4
0,2,-9,1.0359,96.1814,4
-4,-6,4,1.034,96.4163,4
5,3,-8,1.0309,96.8025,4
1,7,1,1.029,97.0411,4
-7,1,8,1.0282,97.142,4
6,4,5,1.0233,97.7657,4
-7,3,7,1.0216,97.9844,4
-4,-2,9,1.0193,98.2822,4
-1,7,2,1.0166,98.6347,4
-7,5,4,1.0148,98.8714,4
-6,-6,1,1.0134,99.0565,1
-1,-5,7,1.0117,99.2825,4
-1,7,-2,1.0106,99.4293,4
-9,-3,5,1.0076,99.8327,4