Folder: Bgolearn/SnIn/agsn/output_xrd

Note: README.md
<h1 align="center">
  <a href=""><img src="https://user-images.githubusercontent.com/86995074/232675281-97ee5a19-b238-4d83-913c-7b0489807fa9.jpeg" alt="Bgolearn" width="150"></a>
  <br>
  Bgolearn
  <br>
</h1>


ğŸ¤ğŸ¤ğŸ¤ Please star â­ï¸ it for promoting open source projects ğŸŒ ! Thanks ! For inquiries or assistance, please don't hesitate to contact us at bcao686@connect.hkust-gz.edu.cn (Dr. CAO Bin).

**Bgolearn** has been implemented in the machine learning platform [MLMD](http://123.60.55.8/). **Bgolearn Code** : [here](https://colab.research.google.com/drive/1OSc-phxm7QLOm8ceGJiIMGGz9riuwP6Q?usp=sharing) The **video of Bgolearn** has been uploaded to platforms : [BiliBili](https://www.bilibili.com/video/BV1Ae411J76z/?spm_id_from=333.999.0.0&vd_source=773e0c92141f498497cfafd0112fc146). [YouTube](https://www.youtube.com/watch?v=MSG6wcBol64&t=48s).


![Screenshot 2023-11-16 at 11 23 35](https://github.com/Bin-Cao/Bgolearn/assets/86995074/cd0d24e4-06db-45f7-b6d6-12750fa8b819)


# Python package - Bgolearn 

**No gradient** information is used
![plot](https://github.com/Bin-Cao/Bgolearn/assets/86995074/d4e43900-eadb-4ddf-af46-0208314de41a)



## Installing / å®‰è£…
    pip install Bgolearn 
    
## Checking / æŸ¥çœ‹
    pip show Bgolearn 
    
## Updating / æ›´æ–°
    pip install --upgrade Bgolearn


## Template 
``` javascript
# import BGOsampling after installation 
# å®‰è£…å, é€šè¿‡æ­¤å‘½ä»¤è°ƒç”¨BGOsamplingç±»
import Bgolearn.BGOsampling as BGOS

# import your dataset (Samples have been characterized)
# å¯¼å…¥ç ”ç©¶çš„æ•°æ®é›†(å·²ç»è¡¨å¾è¿‡çš„æ ·æœ¬)
data = pd.read_csv('data.csv') 
# features 
x = data.iloc[:,:-1]
# response / target 
y = data.iloc[:,-1]

# virtual samples which have same feature dimension with x
# è®¾è®¡çš„è™šæ‹Ÿæ ·æœ¬, ä¸xå…·æœ‰ç›¸åŒçš„ç»´åº¦
vs = pd.read_csv('virtual_data.csv') 

# instantiate class
# å®ä¾‹åŒ–ç±» Bgolearn
Bgolearn = BGOS.Bgolearn() 

# Pass parameters to the function
# ä¼ å…¥å‚æ•°
Mymodel = Bgolearn.fit(data_matrix = x, Measured_response = y, virtual_samples = vs)

# derive the result by EI
# é€šè¿‡EIå¯¼å‡ºç»“æœ
Mymodel.EI()
```

## Multi-task design
    pip install BgoKit 
    
``` javascript
from BgoKit import ToolKit
# vs is the virtual samples
# score_1,score_2 are output of Bgolearn
# score_1, _= Mymodel_1.EI() ; score_2, _= Mymodel_2.EI()

Model = ToolKit.MultiOpt(vs,[score_1,score_2])
Model.BiSearch()
Model.plot_distribution()
```
See : [Link](https://github.com/Bin-Cao/Bgolearn/blob/main/Template/%E4%B8%AD%E6%96%87%E7%A4%BA%E4%BE%8B/%E5%A4%9A%E7%9B%AE%E6%A0%87%E5%AE%9E%E7%8E%B0/%E5%A4%9A%E7%9B%AE%E6%A0%87.ipynb)
<img src="https://github.com/Bin-Cao/Bgolearn/assets/86995074/41c90c29-364c-47cc-aefe-4433f7d93e23" alt="1" width="300" height="300">



## cite
1:
    Cao B., Su T, Yu S, Li T, Zhang T, Zhang J, Dong Z, Zhang Ty. Active learning accelerates the discovery of high strength and high ductility lead-free solder alloys, Materials & Design, 2024, 112921, ISSN 0264-1275, https://doi.org/10.1016/j

File: Ag3SnHKL.csv
H,K,L,Distance,2theta/TOF,Mult
0,0,2,2.5921,34.6044,2
2,0,1,2.5861,34.6872,4
0,2,0,2.3901,37.6341,2
-1,0,2,2.3775,37.8411,4
0,1,-2,2.2786,39.5504,4
-2,-1,-1,2.2746,39.6228,4
0,2,1,2.1705,41.6091,4
-1,1,-2,2.1287,42.4652,8
1,-2,-1,2.0398,44.4122,8
-2,0,-2,1.9569,46.401,4
2,2,0,1.8654,48.8212,1
3,0,-1,1.8572,49.051,4
3,1,0,1.8366,49.6381,4
-2,1,-2,1.811,50.3884,4
0,2,2,1.7571,52.0478,4
-2,-2,1,1.7552,52.1083,1
-3,1,-1,1.7312,52.8863,8
0,0,3,1.7281,52.9886,2
1,2,2,1.6856,54.4333,4
1,0,3,1.6599,55.3477,4
0,-1,3,1.6251,56.6384,4
3,0,-2,1.5781,58.4856,4
1,1,-3,1.568,58.8993,1
1,3,0,1.5394,60.1049,4
0,3,-1,1.523,60.8201,4
2,-2,2,1.5141,61.2159,4
3,1,-2,1.4985,61.9229,8
2,0,3,1.4954,62.0655,4
-4,0,0,1.492,62.2226,2
-1,-3,-1,1.4757,62.9881,4
-3,-2,1,1.4665,63.429,8
4,0,-1,1.4338,65.0512,4
-2,1,-3,1.4272,65.3894,8
0,2,3,1.4004,66.8026,4
-4,1,-1,1.3733,68.3002,8
-1,2,-3,1.3633,68.8714,8
0,3,-2,1.3574,69.2132,4
2,-3,1,1.3565,69.2657,8
1,3,-2,1.3236,71.2449,8
-3,2,-2,1.3169,71.6632,8
3,0,-3,1.3046,72.4453,4
0,0,-4,1.296,73.0033,2
-4,0,-2,1.293,73.2001,4
-2,2,-3,1.2677,74.9081,8
-1,0,4,1.2665,74.9913,4
4,2,0,1.2656,75.0538,4
3,-1,3,1.2585,75.5512,4
0,-1,4,1.2509,76.0918,4
-4,1,2,1.2482,76.2859,8
-3,3,0,1.2436,76.6191,4
-2,3,2,1.2356,77.2065,8
-4,-2,-1,1.2295,77.6611,8
-1,-1,-4,1.2243,78.0534,1
-3,-3,1,1.2093,79.2102,1
0,4,0,1.195,80.3495,2
2,0,-4,1.1887,80.8633,4
0,-3,3,1.1714,82.3131,4
0,-4,1,1.1645,82.9079,4
-5,0,1,1.1631,83.0298,4
-5,1,0,1.158,83.4773,4
2,-1,-4,1.1536,83.8679,8
-1,3,3,1.1494,84.2446,4
-3,-2,3,1.1451,84.6343,8
1,4,1,1.1429,84.8353,4
0,-2,4,1.1393,85.1666,4
-4,-2,-2,1.1373,85.3519,4
5,-1,-1,1.1301,86.0269,4
4,0,3,1.1293,86.1026,4
-3,-3,2,1.1212,86.8784,1
-1,2,-4,1.1191,87.0822,8
-2,4,0,1.1093,88.0482,4
4,-1,3,1.099,89.0908,8
2,3,-3,1.0904,89.9838,8
3,0,-4,1.0859,90.4595,4
0,-4,-2,1.0852,90.534,4
2,-4,-1,1.0848,90.5767,8
5,0,-2,1.0841,90.6514,4
-1,4,-2,1.0677,92.446,8
4,-3,1,1.0658,92.6594,8
-2,2,4,1.0643,92.8287,8
3,1,-4,1.0589,93.4444,8
5,1,-2,1.0573,93.6287,8
-5,2,-1,1.0458,94.9798,8
0,0,5,1.0368,96.0706,2
1,0,-5,1.0215,97.9973,4
4,2,-3,1.021,98.0619,8
2,4,2,1.0199,98.2043,4
0,1,5,1.0132,99.083,4
3,-3,-3,1.0094,99.5902,4